File: Workshop_Day1/Data/Si_Expt.txt
# Silicon Experimental X-ray Diffraction
# 2theta  Intensity
5.00	27
5.06	24
5.12	26
5.18	24
5.24	24
5.30	22
5.36	29
5.42	22
5.48	27
5.54	24
5.60	22
5.66	27
5.72	26
5.78	21
5.84	32
5.90	24
5.96	29
6.02	24
6.08	39
6.14	34
6.20	40
6.26	30
6.32	37
6.38	24
6.44	31
6.50	25
6.56	21
6.62	29
6.68	26
6.74	27
6.80	22
6.86	23
6.92	13
6.98	21
7.04	20
7.10	20
7.16	13
7.22	12
7.28	23
7.34	7
7.40	9
7.46	9
7.52	15
7.58	18
7.64	18
7.70	13
7.76	8
7.82	13
7.88	17
7.94	10
8.00	11
8.06	15
8.12	14
8.18	9
8.24	19
8.30	14
8.36	12
8.42	12
8.48	11
8.54	11
8.60	15
8.66	10
8.72	11
8.78	15
8.84	12
8.90	15
8.96	12
9.02	12
9.08	11
9.14	12
9.20	12
9.26	8
9.32	11
9.38	17
9.44	6
9.50	12
9.56	16
9.62	13
9.68	10
9.74	23
9.80	15
9.86	11
9.92	7
9.98	10
10.04	15
10.10	13
10.16	23
10.22	10
10.28	7
10.34	23
10.40	8
10.46	15
10.52	13
10.58	10
10.64	16
10.70	21
10.76	15
10.82	19
10.88	10
10.94	10
11.00	22
11.06	19
11.12	13
11.18	9
11.24	17
11.30	8
11.36	12
11.42	9
11.48	10
11.54	16
11.60	17
11.66	13
11.72	17
11.78	10
11.84	16
11.90	14
11.96	15
12.02	5
12.08	11
12.14	11
12.20	13
12.26	8
12.32	13
12.38	7
12.44	9
12.50	15
12.56	10
12.62	11
12.68	13
12.74	17
12.80	11
12.86	9
12.92	18
12.98	17
13.04	11
13.10	15
13.16	13
13.22	10
13.28	8
13.34	12
13.40	8
13.46	8
13.52	10
13.58	13
13.64	10
13.70	6
13.76	6
13.82	18
13.88	14
13.94	13
14.00	11
14.06	8
14.12	10
14.18	7
14.24	10
14.30	13
14.36	13
14.42	9
14.48	13
14.54	11
14.60	11
14.66	6
14.72	12
14.78	11
14.84	11
14.90	9
14.96	5
15.02	4
15.08	12
15.14	7
15.20	13
15.26	14
15.32	14
15.38	9
15.44	15
15.50	9
15.56	9
15.62	10
15.68	7
15.74	6
15.80	17
15.86	6
15.92	3
15.98	11
16.04	7
16.10	10
16.16	12
16.22	7
16.28	16
16.34	15
16.40	16
16.46	6
16.52	8
16.58	15
16.64	13
16.70	4
16.76	12
16.82	12
16.88	4
16.94	7
17.00	11
17.06	12
17.12	9
17.18	13
17.24	8
17.30	5
17.36	11
17.42	3
17.48	15
17.54	12
17.60	6
17.66	9
17.72	15
17.78	8
17.84	5
17.90	9
17.96	8
18.02	7
18.08	7
18.14	6
18.20	4
18.26	9
18.32	11
18.38	4
18.44	10
18.50	8
18.56	9
18.62	12
18.68	8
18.74	12
18.80	9
18.86	6
18.92	12
18.98	9
19.04	5
19.10	7
19.16	9
19.22	14
19.28	5
19.34	5
19.40	9
19.46	7
19.52	10
19.58	8
19.64	11
19.70	10
19.76	11
19.82	10
19.88	9
19.94	8
20.00	8
20.06	14
20.12	8
20.18	6
20.24	4
20.30	8
20.36	11
20.42	5
20.48	9
20.54	14
20.60	7
20.66	4
20.72	7
20.78	5
20.84	12
20.90	6
20.96	9
21.02	10
21.08	6
21.14	10
21.20	9
21.26	15
21.32	8
21.38	13
21.44	9
21.50	6
21.56	9
21.62	8
21.68	8
21.74	9
21.80	11
21.86	6
21.92	9
21.98	6
22.04	7
22.10	9
22.16	12
22.22	3
22.28	10
22.34	6
22.40	10
22.46	8
22.52	8
22.58	6
22.64	6
22.70	5
22.76	13
22.82	3
22.88	11
22.94	7
23.00	5
23.06	7
23.12	9
23.18	9
23.24	7
23.30	13
23.36	5
23.42	3
23.48	6
23.54	11
23.60	14
23.66	15
23.72	9
23.78	16
23.84	11
23.90	17
23.96	19
24.02	22
24.08	27
24.14	20
24.20	11
24.26	11
24.32	12
24.38	12
24.44	13
24.50	7
24.56	6
24.62	12
24.68	10
24.74	10
24.80	5
24.86	7
24.92	11
24.98	6
25.04	8
25.10	12
25.16	14
25.22	5
25.28	6
25.34	5
25.40	14
25.46	12
25.52	13
25.58	20
25.64	109
25.70	17
25.76	8
25.82	7
25.88	5
25.94	9
26.00	8
26.06	10
26.12	5
26.18	8
26.24	9
26.30	8
26.36	8
26.42	5
26.48	7
26.54	12
26.60	8
26.66	12
26.72	10
26.78	7
26.84	8
26.90	14
26.96	12
27.02	6
27.08	9
27.14	11
27.20	10
27.26	6
27.32	6
27.38	8
27.44	15
27.50	16
27.56	14
27.62	21
27.68	13
27.74	17
27.80	27
27.86	21
27.92	29
27.98	17
28.04	19
28.10	20
28.16	30
28.22	28
28.28	64
28.34	169
28.40	1108
28.46	1880
28.52	1362
28.58	107
28.64	52
28.70	30
28.76	26
28.82	18
28.88	24
28.94	12
29.00	15
29.06	12
29.12	11
29.18	14
29.24	18
29.30	15
29.36	18
29.42	10
29.48	16
29.54	17
29.60	12
29.66	12
29.72	11
29.78	16
29.84	13
29.90	14
29.96	11
30.02	19
30.08	9
30.14	8
30.20	10
30.26	11
30.32	15
30.38	10
30.44	10
30.50	11
30.56	14
30.62	10
30.68	17
30.74	8
30.80	12
30.86	16
30.92	9
30.98	6
31.04	12
31.10	11
31.16	6
31.22	16
31.28	13
31.34	7
31.40	14
31.46	9
31.52	9
31.58	9
31.64	3
31.70	8
31.76	6
31.82	4
31.88	9
31.94	4
32.00	8
32.06	9
32.12	9
32.18	5
32.24	12
32.30	14
32.36	8
32.42	12
32.48	16
32.54	10
32.60	10
32.66	6
32.72	10
32.78	7
32.84	5
32.90	11
32.96	6
33.02	7
33.08	9
33.14	4
33.20	7
33.26	5
33.32	9
33.38	9
33.44	4
33.50	4
33.56	7
33.62	5
33.68	9
33.74	10
33.80	10
33.86	14
33.92	13
33.98	8
34.04	12
34.10	16
34.16	14
34.22	10
34.28	15
34.34	7
34.40	7
34.46	14
34.52	12
34.58	11
34.64	10
34.70	7
34.76	10
34.82	9
34.88	5
34.94	12
35.00	11
35.06	10
35.12	4
35.18	10
35.24	7
35.30	6
35.36	5
35.42	8
35.48	6
35.54	13
35.60	5
35.66	8
35.72	7
35.78	10
35.84	9
35.90	6
35.96	9
36.02	6
36.08	5
36.14	3
36.20	10
36.26	9
36.32	10
36.38	6
36.44	9
36.50	9
36.56	8
36.62	7
36.68	7
36.74	3
36.80	4
36.86	5
36.92	6
36.98	6
37.04	2
37.10	10
37.16	8
37.22	7
37.28	12
37.34	7
37.40	14
37.46	12
37.52	18
37.58	7
37.64	10
37.70	5
37.76	9
37.82	13
37.88	9
37.94	9
38.00	12
38.06	10
38.12	7
38.18	4
38.24	9
38.30	10
38.36	6
38.42	6
38.48	6
38.54	10
38.60	9
38.66	5
38.72	9
38.78	4
38.84	9
38.90	9
38.96	7
39.02	8
39.08	6
39.14	8
39.20	13
39.26	5
39.32	5
39.38	2
39.44	10
39.50	7
39.56	10
39.62	9
39.68	8
39.74	12
39.80	10
39.86	11
39.92	11
39.98	6
40.04	4
40.10	7
40.16	10
40.22	7
40.28	10
40.34	7
40.40	7
40.46	3
40.52	11
40.58	9
40.64	3
40.70	7
40.76	10
40.82	8
40.88	8
40.94	5
41.00	9
41.06	3
41.12	8
41.18	9
41.24	5
41.30	4
41.36	14
41.42	6
41.48	5
41.54	7
41.60	11
41.66	7
41.72	3
41.78	5
41.84	4
41.90	9
41.96	8
42.02	6
42.08	4
42.14	9
42.20	9
42.26	9
42.32	11
42.38	8
42.44	10
42.50	22
42.56	20
42.62	11
42.68	6
42.74	9
42.80	6
42.86	12
42.92	11
42.98	4
43.04	9
43.10	11
43.16	5
43.22	18
43.28	9
43.34	11
43.40	16
43.46	22
43.52	12
43.58	6
43.64	7
43.70	9
43.76	14
43.82	15
43.88	7
43.94	2
44.00	16
44.06	10
44.12	8
44.18	13
44.24	11
44.30	11
44.36	12
44.42	6
44.48	5
44.54	14
44.60	9
44.66	14
44.72	9
44.78	15
44.84	7
44.90	11
44.96	4
45.02	6
45.08	12
45.14	10
45.20	7
45.26	12
45.32	9
45.38	13
45.44	10
45.50	13
45.56	11
45.62	15
45.68	10
45.74	17
45.80	14
45.86	5
45.92	8
45.98	13
46.04	13
46.10	14
46.16	8
46.22	8
46.28	12
46.34	6
46.40	12
46.46	11
46.52	11
46.58	15
46.64	12
46.70	14
46.76	14
46.82	21
46.88	12
46.94	13
47.00	24
47.06	29
47.12	35
47.18	64
47.24	225
47.30	1842
47.36	265
47.42	854
47.48	133
47.54	42
47.60	34
47.66	23
47.72	20
47.78	21
47.84	12
47.90	19
47.96	15
48.02	12
48.08	15
48.14	11
48.20	13
48.26	12
48.32	11
48.38	11
48.44	8
48.50	20
48.56	9
48.62	7
48.68	14
48.74	10
48.80	13
48.86	9
48.92	8
48.98	9
49.04	11
49.10	8
49.16	17
49.22	5
49.28	13
49.34	13
49.40	14
49.46	10
49.52	8
49.58	11
49.64	4
49.70	7
49.76	8
49.82	4
49.88	20
49.94	10
50.00	12
50.06	10
50.12	7
50.18	10
50.24	13
50.30	22
50.36	14
50.42	7
50.48	12
50.54	7
50.60	8
50.66	7
50.72	12
50.78	9
50.84	9
50.90	10
50.96	11
51.02	3
51.08	14
51.14	9
51.20	7
51.26	11
51.32	9
51.38	7
51.44	14
51.50	9
51.56	8
51.62	10
51.68	8
51.74	11
51.80	8
51.86	6
51.92	10
51.98	4
52.04	11
52.10	10
52.16	8
52.22	5
52.28	14
52.34	9
52.40	11
52.46	6
52.52	11
52.58	9
52.64	7
52.70	11
52.76	9
52.82	6
52.88	5
52.94	6
53.00	6
53.06	12
53.12	8
53.18	5
53.24	8
53.30	13
53.36	8
53.42	7
53.48	6
53.54	13
53.60	7
53.66	8
53.72	8
53.78	7
53.84	8
53.90	9
53.96	7
54.02	10
54.08	7
54.14	9
54.20	14
54.26	7
54.32	5
54.38	13
54.44	11
54.50	8
54.56	12
54.62	7
54.68	9
54.74	15
54.80	10
54.86	5
54.92	12
54.98	13
55.04	10
55.10	7
55.16	8
55.22	7
55.28	13
55.34	12
55.40	9
55.46	17
55.52	6
55.58	8
55.64	12
55.70	14
55.76	7
55.82	12
55.88	17
55.94	21
56.00	32
56.06	94
56.12	848
56.18	163
56.24	154
56.30	326
56.36	53
56.42	21
56.48	14
56.54	7
56.60	15
56.66	8
56.72	8
56.78	14
56.84	10
56.90	8
56.96	4
57.02	6
57.08	6
57.14	5
57.20	11
57.26	8
57.32	6
57.38	8
57.44	12
57.50	11
57.56	11
57.62	15
57.68	12
57.74	8
57.80	10
57.86	13
57.92	10
57.98	7
58.04	7
58.10	10
58.16	6
58.22	6
58.28	4
58.34	10
58.40	6
58.46	8
58.52	8
58.58	7
58.64	3
58.70	5
58.76	6
58.82	13
58.88	9
58.94	4
59.00	9
59.06	10
59.12	4
59.18	7
59.24	8
59.30	11
59.36	6
59.42	9
59.48	7
59.54	10
59.60	7
59.66	16
59.72	9
59.78	4
59.84	9
59.90	6
59.96	8
60.02	8
60.08	7
60.14	9
60.20	10
60.26	5
60.32	6
60.38	9
60.44	4
60.50	8
60.56	5
60.62	10
60.68	5
60.74	9
60.80	7
60.86	10
60.92	9
60.98	12
61.04	7
61.10	8
61.16	9
61.22	11
61.28	12
61.34	4
61.40	12
61.46	11
61.52	7
61.58	5
61.64	7
61.70	11
61.76	11
61.82	8
61.88	8
61.94	6
62.00	10
62.06	7
62.12	10
62.18	6
62.24	8
62.30	5
62.36	9
62.42	7
62.48	5
62.54	6
62.60	8
62.66	8
62.72	5
62.78	11
62.84	6
62.90	8
62.96	4
63.02	9
63.08	6
63.14	6
63.20	4
63.26	6
63.32	8
63.38	7
63.44	2
63.50	7
63.56	2
63.62	8
63.68	9
63.74	6
63.80	7
63.86	5
63.92	7
63.98	8
64.04	3
64.10	7
64.16	10
64.22	4
64.28	8
64.34	12
64.40	7
64.46	8
64.52	5
64.58	6
64.64	7
64.70	8
64.76	4
64.82	8
64.88	6
64.94	7
65.00	9
65.06	5
65.12	7
65.18	5
65.24	9
65.30	7
65.36	6
65.42	3
65.48	9
65.54	3
65.60	5
65.66	5
65.72	5
65.78	8
65.84	9
65.90	1
65.96	4
66.02	9
66.08	5
66.14	10
66.20	8
66.26	4
66.32	3
66.38	5
66.44	8
66.50	7
66.56	8
66.62	8
66.68	8
66.74	12
66.80	8
66.86	5
66.92	8
66.98	6
67.04	8
67.10	5
67.16	2
67.22	3
67.28	10
67.34	7
67.40	5
67.46	8
67.52	8
67.58	7
67.64	7
67.70	6
67.76	7
67.82	10
67.88	7
67.94	7
68.00	9
68.06	7
68.12	10
68.18	10
68.24	2
68.30	7
68.36	10
68.42	10
68.48	12
68.54	3
68.60	8
68.66	9
68.72	7
68.78	7
68.84	10
68.90	12
68.96	8
69.02	11
69.08	26
69.14	85
69.20	19
69.26	14
69.32	53
69.38	18
69.44	11
69.50	7
69.56	5
69.62	7
69.68	6
69.74	6
69.80	9
69.86	8
69.92	6
69.98	4
70.04	10
70.10	5
70.16	4
70.22	6
70.28	10
70.34	8
70.40	5
70.46	6
70.52	5
70.58	4
70.64	8
70.70	5
70.76	8
70.82	8
70.88	8
70.94	4
71.00	8
71.06	5
71.12	9
71.18	11
71.24	8
71.30	9
71.36	6
71.42	5
71.48	7
71.54	8
71.60	9
71.66	4
71.72	5
71.78	4
71.84	9
71.90	8
71.96	8
72.02	12
72.08	12
72.14	6
72.20	12
72.26	9
72.32	6
72.38	11
72.44	7
72.50	11
72.56	8
72.62	2
72.68	8
72.74	4
72.80	9
72.86	6
72.92	7
72.98	3
73.04	8
73.10	5
73.16	8
73.22	6
73.28	6
73.34	7
73.40	9
73.46	4
73.52	7
73.58	13
73.64	10
73.70	4
73.76	5
73.82	8
73.88	7
73.94	2
74.00	4
74.06	7
74.12	4
74.18	8
74.24	7
74.30	7
74.36	6
74.42	3
74.48	7
74.54	7
74.60	5
74.66	8
74.72	5
74.78	5
74.84	7
74.90	5
74.96	9
75.02	4
75.08	8
75.14	9
75.20	5
75.26	9
75.32	5
75.38	5
75.44	4
75.50	2
75.56	10
75.62	10
75.68	5
75.74	8
75.80	9
75.86	9
75.92	9
75.98	6
76.04	11
76.10	11
76.16	13
76.22	12
76.28	22
76.34	100
76.40	157
76.46	45
76.52	25
76.58	100
76.64	62
76.70	26
76.76	13
76.82	9
76.88	8
76.94	8
77.00	10
77.06	8
77.12	11
77.18	7
77.24	13
77.30	5
77.36	16
77.42	8
77.48	9
77.54	7
77.60	8
77.66	4
77.72	8
77.78	4
77.84	9
77.90	4
77.96	4
78.02	10
78.08	5
78.14	8
78.20	14
78.26	4
78.32	4
78.38	7
78.44	0
78.50	7
78.56	8
78.62	6
78.68	4
78.74	6
78.80	6
78.86	4
78.92	15
78.98	7
79.04	14
79.10	5
79.16	9
79.22	8
79.28	5
79.34	7
79.40	9
79.46	6
79.52	4
79.58	11
79.64	5
79.70	11
79.76	6
79.82	2
79.88	5
79.94	5
80.00	7
80.06	5
80.12	9
80.18	4
80.24	10
80.30	6
80.36	10
80.42	8
80.48	6
80.54	5
80.60	6
80.66	11
80.72	7
80.78	4
80.84	5
80.90	7
80.96	9
81.02	6
81.08	4
81.14	6
81.20	11
81.26	8
81.32	6
81.38	15
81.44	3
81.50	2
81.56	4
81.62	7
81.68	4
81.74	5
81.80	10
81.86	5
81.92	6
81.98	4
82.04	10
82.10	5
82.16	5
82.22	4
82.28	4
82.34	9
82.40	9
82.46	11
82.52	7
82.58	3
82.64	2
82.70	6
82.76	4
82.82	5
82.88	8
82.94	2
83.00	5
83.06	8
83.12	8
83.18	7
83.24	6
83.30	4
83.36	6
83.42	5
83.48	6
83.54	16
83.60	6
83.66	13
83.72	5
83.78	10
83.84	9
83.90	6
83.96	3
84.02	12
84.08	4
84.14	4
84.20	6
84.26	8
84.32	9
84.38	4
84.44	7
84.50	10
84.56	8
84.62	3
84.68	11
84.74	9
84.80	8
84.86	5
84.92	5
84.98	7
85.04	2
85.10	8
85.16	8
85.22	6
85.28	7
85.34	3
85.40	8
85.46	6
85.52	8
85.58	5
85.64	7
85.70	5
85.76	3
85.82	5
85.88	12
85.94	7
86.00	6
86.06	9
86.12	3
86.18	7
86.24	5
86.30	5
86.36	6
86.42	3
86.48	6
86.54	7
86.60	4
86.66	6
86.72	4
86.78	6
86.84	6
86.90	5
86.96	7
87.02	6
87.08	6
87.14	12
87.20	13
87.26	3
87.32	6
87.38	5
87.44	10
87.50	11
87.56	9
87.62	14
87.68	12
87.74	12
87.80	9
87.86	17
87.92	24
87.98	70
88.04	336
88.10	75
88.16	27
88.22	26
88.28	74
88.34	134
88.40	37
88.46	26
88.52	13
88.58	5
88.64	4
88.70	4
88.76	6
88.82	5
88.88	6
88.94	4
89.00	7
89.06	7
89.12	8
89.18	3
89.24	6
89.30	4
89.36	6
89.42	10
89.48	7
89.54	9
89.60	4
89.66	8
89.72	7
89.78	6
89.84	10
89.90	8
89.96	9
90.00	10